Folder: perovskite_data (part 2)

File: sorted_by_pce_without_bottom_outliers.csv
Tolerance Factor,New Tolerance Factor,Octahedral Factor,Band gap,Del H,Del L,Voc,Jsc,FF,PCE
1.03884,3.51009,0.572816,1.5,0.44,0.2,0.77,11.28,0.577,5.01
0.85178,4.19494,0.621314,2.08,0.8,0.08,0.85,10.56,0.62,5.52
1.05522,3.48261,0.57767,1.4,0.7,0.28,0.4,22.17,0.662,5.9
1.02912,3.52023,0.572816,1.51,0.49,0.08,1.01,8.69,0.726,6.29
0.855599,4.12782,0.648352,2.3,0.6,0.8,1.24,7.4,0.73,6.7
1.0275,3.43958,0.606247,1.6,0.5,0,0.975,10.92,0.66,7.03
1.05945,3.46508,0.583004,1.73,0.43,0.18,0.97,20.1,0.38,7.5
1.03884,3.51009,0.572816,1.5,0.35,0.2,0.924,18.6,0.48,8.3
1.05945,3.46508,0.583004,1.73,0.47,0.43,0.99,16,0.57,9
1.03884,3.51009,0.572816,1.5,0.2,0.2,0.93,18.19,0.563,9.52
1.03884,3.51009,0.572816,1.5,0.4,0.3,0.84,16.6,0.76,10.6
1.04012,3.4995,0.576313,1.55,0.28,0.37,0.94,20.5,0.56,10.8
1.04012,3.4995,0.576313,1.61,0.16,0.35,0.89,20.3,0.62,11.2
1.03884,3.51009,0.572816,1.5,0.2,0.3,0.95,16.47,0.721,11.26
1.03884,3.51009,0.572816,1.5,0.3,0.3,0.9,19.3,0.67,11.5
1.05685,3.48794,0.575243,1.17,0.5,0.06,0.61,27.79,0.68,11.6
1.03884,3.51009,0.572816,1.5,0.2,0,1.11,20.53,0.5,11.7
0.848045,4.26409,0.595719,1.92,0.83,0.27,1.06,14.7,0.757,11.9
0.848045,4.26409,0.595719,1.82,0.64,0.44,1.3,13.13,0.704,12.02
1.03884,3.51009,0.572816,1.5,0.18,0.3,1.05,19.17,0.607,12.27
1.03884,3.51009,0.572816,1.5,0.2,0.3,1.024,17.91,0.672,12.33
1.03884,3.51009,0.572816,1.5,0.21,0.4,0.959,20.35,0.645,12.59
1.04012,3.4995,0.576313,1.56,0.11,0.25,0.91,19.07,0.72,12.61
1.03884,3.51009,0.572816,1.5,0.4,0.3,0.87,18.31,0.79,12.68
1.03884,3.51009,0.572816,1.5,0.21,0.47,0.955,20.5,0.65,12.77
1.04012,3.4995,0.576313,1.55,0.08,0.17,0.9,18.5,0.8,13.3
1.03884,3.51009,0.572816,1.5,0.2,0.3,0.88,20.25,0.75,13.37
1.05848,3.49339,0.572816,1.5,0.47,0.12,0.88,22,0.7,13.5
1.03884,3.51009,0.572816,1.5,0.4,0.1,0.99,19.82,0.7,13.61
1.0483,3.47065,0.58439,1.7,0.2,0.5,1.04,19.76,0.68,13.86
1.03884,3.51009,0.572816,1.5,0.3,0.3,0.93,18.64,0.8,14.01
1.04704,3.49596,0.575243,1.25,0.2,0.35,0.67,28.35,0.74,14.18
1.03884,3.51009,0.572816,1.55,0.42,0.17,1.061,20.7,0.647,14.2
1.04012,3.4995,0.576313,1.55,0.08,0.25,0.985,19.8,0.7358,14.35
1.05848,3.49339,0.572816,1.5,0.5,0.12,0.966,21.918,0.676,14.36
1.03884,3.51009,0.572816,1.5,0.18,0.11,0.99,20.18,0.72,14.38
1.03884,3.51009,0.572816,1.5,0.5,0.3,1,18.52,0.78,14.45
1.03884,3.51009,0.572816,1.5,0.2,0.18,1.07,19.6,0.69,14.5
1.00342,3.52866,0.58313,1.5,0.14,0,1,21.2,0.69,14.5
0.848045,4.26409,0.595719,1.92,0.83,0.05,1.23,15,0.785,14.6
1.03884,3.51009,0.572816,1.5,0.32,0.3,1,18.56,0.79,14.6
1.03884,3.51009,0.572816,1.5,0.21,0.1,0.965,21.7,0.7,14.65
1.03884,3.51009,0.572816,1.5,0.2,0.3,0.98,19.1,0.78,14.7
1.03884,3.51009,0.572816,1.5,0.2,0.3,1,18.85,0.79,14.83
1.0483,3.47065,0.58439,1.7,0.2,0.2,1.04,20.54,0.7,14.92
1.03884,3.51009,0.572816,1.5,0.18,0.2,0.99,22,0.69,15
1.03884,3.51009,0.572816,1.5,0.2,0.3,0.96,19.8,0.79,15.01
1.03884,3.51009,0.572816,1.5,0.1,0.6,1.04,20.4,0.68,15.1
1.04012,3.4995,0.576313,1.55,0.1,0.15,0.99,19.58,0.78,15.12
1.03884,3.51009,0.572816,1.5,0.2,0,1.039,20.71,0.704,15.15
1.05826,3.47149,0.580937,1.58,0.4,0.16,1.103,21.96,0.6274,15.2
1.03884,3.51009,0.572816,1.5,0.1,0.3,1.075,21.296,0.664,15.2
1.03884,3.51009,0.572816,1.5,0.4,0,0.92,21.73,0.758,15.2
1.05945,3.46508,0.583004,1.62,0.23,0.37,1.027,21.47,0.6916,15.24
1.03884,3.51009,0.572816,1.5,0.18,0.33,1.05,20.7,0.7,15.3
1.03884,3.51009,0.572816,1.5,0.4,0.2,1.07,23.44,0.6125,15.38
1.03884,3.51009,0.572816,1.5,0.1,0.3,1.04,20.2,0.74,15.4
1.03884,3.51009,0.572816,1.565,0.2,0.2,1.016,22.92,0.67,15.6
1.03884,3.51009,0.572816,1.59,0.18,0.11,1.07,19.3,0.76,15.7
0.8446,4.33121,0.572816,1.73,0.18,0.27,1.08,18.41,0.793,15.71
1.04012,3.4995,0.576313,1.5,0.3,-0.3,0.96,21.1,0.78,15.8
1.0542,3.49662,0.572816,1.48,0.95,0,0.985,23.35,0.688,15.83
1.04012,3.4995,0.576313,1.55,0.18,0.37,0.98,22.94,0.7,15.9
1.05848,3.49339,0.572816,1.5,0.5,0.12,1,22.4,0.71,16
1.03884,3.51009,0.572816,1.5,0.16,0.37,1.04,20.4,0.756,16.04
0.848045,4.26409,0.595719,1.92,0.86,0.06,1.23,16.79,0.7781,16.07
1.05683,3.48542,0.576172,1.6,0.28,0.2,1.1,20.7,0.706,16.1
1.03884,3.51009,0.572816,1.5,0.18,0.3,1.116,19.1,0.754,16.1
1.03884,3.51009,0.572816,1.5,0.18,0.2,1.029,21.08,0.745,16.11
1.03884,3.51009,0.572816,1.5,0.15,0.3,1.071,20.62,0.748,16.2
1.03884,3.51009,0.572816,1.5,0.3,0.18,1.06,20.7,0.74,16.2
1.03884,3.51009,0.572816,1.5,0.15,0.2,1.09,19.5,0.76,16.22
1.03884,3.51009,0.572816,1.5,0.2,0.3,1.11,20.7,0.709,16.3
1.03884,3.51009,0.572816,1.5,0.2,0.32,1.06,21.8,0.706,16.3
1.03884,3.51009,0.572816,1.5,0.2,0.2,1.036,19.85,0.76,16.37
1.03884,3.51009,0.572816,1.55,0.08,0.26,1.05,21.62,0.7234,16.43
1.03884,3.51009,0.572816,1.69,0.45,0.21,1.03,21.7,0.738,16.49
1.03884,3.51009,0.572816,1.5,0.18,0.2,1.07,20.5,0.74,16.5
1.03884,3.51009,0.572816,1.5,0.1,0.3,1.05,21.9,0.72,16.5
1.03884,3.51009,0.572816,1.5,0,0.2,1.03,21.4,0.75,16.5
1.03884,3.51009,0.572816,1.5,0.22,0.3,1.07,20.15,0.77,16.6
1.05958,3.46132,0.58439,1.56,0.63,0.02,1.12,21.06,0.704,16.6
1.03884,3.51009,0.572816,1.5,0.21,0.37,1.05,20.71,0.7664,16.67
1.03982,3.50195,0.575497,1.585,0.21,0.21,1.052,23.08,0.69,16.75
1.05945,3.46508,0.583004,1.73,0.39,0.43,1.133,20.4,0.72,16.8
1.03884,3.51009,0.572816,1.5,0.4,0.3,1.02,21.87,0.75,16.8
1.05945,3.46508,0.583004,1.6,0.32,0.1,1.145,23.12,0.64,16.9
1.03884,3.51009,0.572816,1.5,0.15,0.3,1.08,20.6,0.766,17
1.04895,3.47007,0.58439,1.6,0.45,0.14,1.121,21.34,0.714,17
1.03884,3.51009,0.572816,1.5,0.23,0.3,1.07,20.37,0.78,17.02
1.04012,3.4995,0.576313,1.6,0.3,0,0.98,22.61,0.77,17.06
1.03884,3.51009,0.572816,1.5,0.1,0,1.04,21.3,0.772,17.1
1.03884,3.51009,0.572816,1.5,0.18,0.32,1.05,22.5,0.718,17.1
1.04056,3.49585,0.577525,1.597,0.2146,0.216,1.065,22.95,0.7,17.11
1.04219,3.46469,0.588966,1.35,0.02,0.01,0.89,25.67,0.75,17.13
1.04012,3.4995,0.576313,1.55,0.08,0.25,1.08,21.45,0.74,17.14
1.03884,3.51009,0.572816,1.5,0.18,0.2,1.05,22.8,0.72,17.2
1.03884,3.51009,0.572816,1.5,0.17,0.37,1.09,20.94,0.754,17.21
1.03884,3.51009,0.572816,1.5,0.18,0.2,1.105,21.06,0.74,17.24
1.05945,3.46508,0.583004,1.72,0.4,0.18,1.08,22,0.7,17.3
1.03884,3.51009,0.572816,1.5,0.18,0.3,1.06,20.68,0.791,17.35
1.03884,3.51009,0.572816,1.5,0.4,0.2,1.06,21.7,0.75,17.4
1.03884,3.51009,0.572816,1.5,0.17,0.2,1.12,20.5,0.76,17.5
1.00342,3.52866,0.58313,1.5,0.14,0.2,1.06,21.4,0.77,17.5
1.03884,3.51009,0.572816,1.5,0.18,0.32,1.058,20.8,0.798,17.54
1.04704,3.49596,0.575243,1.25,0.2,0.15,0.75,30.36,0.76,17.59
1.04895,3.47007,0.58439,1.6,0.41,0.14,1.089,22.38,0.725,17.6
1.04895,3.47007,0.58439,1.6,0.41,0.14,1.089,22.38,0.725,17.6
1.03884,3.51009,0.572816,1.5,0.18,0.2,1.06,20.68,0.75,17.65
1.03884,3.51009,0.572816,1.45,0.06,0.11,1.06,22.35,0.75,17.78
1.03884,3.51009,0.572816,1.5,0.15,0.2,1.08,21,0.786,17.8
1.03825,3.48031,0.58439,1.57,0.15,0.06,1.09,23.16,0.7088,17.88
1.05945,3.46508,0.583004,1.73,0.18,0.43,1.087,22.3,0.74,17.9
1.05958,3.46132,0.58439,1.58,0.4,0.06,1.06,22.08,0.767,18
1.04007,3.49992,0.576172,1.591,0.213,0.213,1.064,23.52,0.72,18.02
1.03884,3.51009,0.572816,1.5,0.17,0.2,1.1,20.6,0.797,18.06
1.03884,3.51009,0.572816,1.5,0.15,0.3,1.07,22,0.768,18.1
1.03884,3.51009,0.572816,1.5,0.24,0.1,1.09,21.74,0.767,18.18
1.04012,3.4995,0.576313,1.56,0.07,0.54,1.08,21.66,0.781,18.27
1.05945,3.46508,0.583004,1.73,0.35,0.43,1.145,20.7,0.77,18.3
1.04473,3.50457,0.572816,1.57,0.23,0.27,1.044,21.66,0.81,18.32
1.03884,3.51009,0.572816,1.5,0.18,0,1.1,22.06,0.756,18.39
1.00342,3.52866,0.58313,1.5,0.3,0,1.13,22.6,0.71,18.5
1.04012,3.4995,0.576313,1.55,0.01,0.25,1.11,21.66,0.77,18.51
1.05945,3.46508,0.583004,1.73,0.18,0.32,1.09,24.42,0.699,18.56
1.04859,3.46137,0.587884,1.62,0.33,0.25,1.134,21.36,0.769,18.64
1.04473,3.50457,0.572816,1.57,0.19,0.27,1.079,22.2,0.781,18.71
1.0275,3.43958,0.606247,1.6,0.48,0,1.097,22.59,0.758,18.77
1.04012,3.4995,0.576313,1.56,0.07,0.42,1.1,22.03,0.774,18.77
1.03884,3.51009,0.572816,1.5,0.3,0.1,1.12,21.8,0.77,18.8
1.04012,3.4995,0.576313,1.63,0.21,0.25,1.136,21.36,0.78,18.89
1.00342,3.52866,0.58313,1.5,0.2,0,1.15,21.5,0.76,18.9
1.03708,3.49041,0.580937,1.59,0.43,0.14,1.097,23.21,0.74,18.99
1.03884,3.51009,0.572816,1.5,0.15,0.2,1.05,22.7,0.8,19
1.03825,3.48031,0.58439,1.57,0.16,0.06,1.12,23.15,0.7339,19.03
1.03884,3.51009,0.572816,1.5,0.18,0.2,1.09,23.91,0.73,19.12
1.03884,3.51009,0.572816,1.5,0,0.3,1.11,21.23,0.81,19.14
1.03884,3.51009,0.572816,1.5,0.2,0,1.122,22.6,0.757,19.19
1.05945,3.46508,0.583004,1.73,0.43,0.18,1.13,23.67,0.72,19.2
1.05945,3.46508,0.583004,1.55,0.4,0.18,1.03,23.7,0.79,19.2
1.04473,3.50457,0.572816,1.57,0.212,0.27,1.072,22.3,0.807,19.29
1.03884,3.51009,0.572816,1.69,0.45,0.27,1.16,22.3,0.752,19.42
1.03628,3.4644,0.591533,1.62,0.84,0.57,1.1,22.56,0.785,19.48
1.03884,3.51009,0.572816,1.5,0.3,0,1.07,22.6,0.806,19.5
1.03825,3.48031,0.58439,1.57,0.16,0.14,1.11,23.52,0.7506,19.6
1.05945,3.46508,0.583004,1.73,0.69,0.18,1.1,25.5,0.6985,19.68
1.00342,3.52866,0.58313,1.5,0.1,0,1.17,22.2,0.77,19.8
1.04473,3.50457,0.572816,1.57,0.201,0.27,1.082,22.51,0.815,19.85
1.05945,3.46508,0.583004,1.58,0.72,0.02,1.14,22.58,0.78,20.02
1.05945,3.46508,0.583004,1.59,0.16,0.2,1.1,23.2,0.786,20.05
1.03884,3.51009,0.572816,1.59,0.4,0.3,1.03,23.51,0.83,20.1
1.03708,3.49041,0.580937,1.59,0.43,0.21,1.084,22.66,0.82,20.16
1.05945,3.46508,0.583004,1.6,0.43,0.15,1.13,23.52,0.76,20.2
1.04865,3.47756,0.581625,1.63,0.63,0.12,1.168,22.51,0.776,20.4
1.03825,3.48031,0.58439,1.57,0.14,0.06,1.13,23.62,0.7666,20.47
1.04287,3.50626,0.572816,1.56,0.19,0.47,1.08,24.35,0.766,20.5
1.05945,3.46508,0.583004,1.6,0.39,0.1,1.13,23.87,0.76,20.6
1.03884,3.51009,0.572816,1.5,0.15,0.2,1.11,24,0.78,20.7
1.05945,3.46508,0.583004,1.55,0.4,0.18,1.14,23.7,0.78,21
1.05945,3.46508,0.583004,1.58,0.44,0.3,1.1,23.4,0.827,21.3
1.04883,3.47379,0.583004,1.6,0.78,0,1.189,22.3,0.806,21.4
1.05945,3.46508,0.583004,1.58,0.06,0.3,1.14,23.4,0.823,22